NO_OF_FRAMES	494
NO_OF_DATA_TYPES	15
FREQUENCY	100
TIME_STAMP	2025-01-24, 16:29:55
DATA_INCLUDED	Acceleration
DATA_TYPES	2_acc_X	2_acc_Y	2_acc_Z	3_acc_X	3_acc_Y	3_acc_Z	4_acc_X	4_acc_Y	4_acc_Z	C_acc_X	C_acc_Y	C_acc_Z	1_acc_X	1_acc_Y	1_acc_Z

Frame	Time	2_acc_X	2_acc_Y	2_acc_Z	3_acc_X	3_acc_Y	3_acc_Z	4_acc_X	4_acc_Y	4_acc_Z	C_acc_X	C_acc_Y	C_acc_Z	1_acc_X	1_acc_Y	1_acc_Z	
357	3.56000	15.639	-308.575	415.394	-217.994	-22.941	-39.734	153.508	-289.286	85.843	6.037	383.204	57.899	-410.507	619.500	1065.923
358	3.57000	-303.086	198.513	-131.246	564.455	45.197	276.123	-268.746	686.721	-215.537	-192.119	-423.486	17.959	360.248	-441.436	-1109.346
359	3.58000	246.105	-83.571	-327.616	-448.302	-95.036	-209.372	-164.314	-1146.807	-484.497	386.024	557.751	-29.074	48.846	272.213	623.703
360	3.59000	-191.065	-51.045	-15.051	-53.476	163.939	-154.700	629.514	1410.646	1046.376	-424.345	-393.225	293.288	-58.107	-97.570	17.379
361	3.60000	-90.013	-91.417	309.318	316.439	99.275	259.493	-679.648	-916.865	-442.144	452.179	-186.740	-408.536	-280.644	-164.113	259.877
362	3.61000	121.890	288.116	-76.619	-434.641	-340.806	-260.937	350.657	-115.803	-580.304	-237.119	671.202	67.507	53.538	210.378	-826.445
363	3.62000	122.595	-60.181	-127.194	173.405	88.876	128.091	-314.084	241.783	613.768	-168.958	-470.471	9.441	170.691	-70.268	741.977
364	3.63000	34.105	-50.882	190.943	203.445	115.263	114.242	742.058	578.447	325.405	338.103	-56.155	302.827	-163.093	41.676	-36.666
365	3.64000	-66.523	-192.804	-233.637	-264.032	49.389	-234.013	-821.580	-691.977	-451.785	-378.601	58.112	-547.754	207.232	-138.177	-508.578
366	3.65000	17.991	193.757	343.533	90.807	78.435	138.666	509.811	333.141	-29.749	381.995	-111.940	427.619	-292.319	283.042	337.368
367	3.66000	-69.498	-165.336	-106.152	30.026	-265.732	-148.990	-547.497	-258.768	61.626	-146.285	359.168	-224.761	363.518	-506.133	-119.151
368	3.67000	-322.710	154.809	-421.110	-6.148	234.786	205.079	381.258	85.182	-15.581	-52.518	-187.758	15.543	-58.190	423.994	-54.448
369	3.68000	610.801	231.647	413.237	76.179	-192.726	49.264	29.238	167.479	16.255	-67.686	-47.568	197.442	-362.345	-9.604	222.590
370	3.69000	-271.275	-356.995	-100.421	-21.418	175.032	-307.874	77.029	-198.701	-111.117	215.348	-156.476	2.412	324.106	-260.851	-238.202
371	3.70000	-105.503	166.115	161.477	-209.699	-456.446	103.100	-364.879	-600.640	-132.798	-246.216	489.974	-109.671	175.355	124.525	201.181
372	3.71000	-19.091	-117.272	-399.559	-6.555	455.339	114.401	485.431	1131.580	804.103	107.339	-538.320	1.051	-532.072	20.697	-32.580
373	3.72000	266.934	125.272	324.888	430.816	16.425	101.712	-272.737	-334.317	-749.680	19.024	-36.540	-189.035	473.064	302.212	218.979
374	3.73000	-290.007	-291.309	-112.642	-265.458	-183.448	-190.673	78.267	-44.756	184.740	107.625	392.789	-21.602	-211.108	-150.805	-181.625
375	3.74000	374.298	523.128	83.935	-99.843	119.399	86.783	-275.457	-283.624	-32.916	-94.632	-19.611	229.895	196.412	-370.006	-250.176
376	3.75000	-275.457	-79.505	55.287	222.225	-101.353	-143.153	508.241	196.770	180.271	-334.817	-278.393	317.879	-352.362	234.301	125.707
377	3.76000	-29.297	-289.981	-89.154	-69.662	252.042	348.258	-302.761	242.354	-285.198	576.235	504.097	-731.526	325.109	149.866	67.222
378	3.77000	68.543	-83.074	-49.498	-197.116	-216.600	-458.763	-67.020	-345.731	216.073	-519.337	-334.399	828.308	-431.945	-97.922	40.319
379	3.78000	-84.949	271.886	-165.777	-7.285	-370.129	212.382	169.887	44.956	66.317	675.478	65.607	-521.770	484.069	-229.707	-123.523
380	3.79000	81.589	-144.656	494.620	141.528	491.983	128.004	-110.410	162.293	-166.141	-678.028	-55.580	27.010	-163.860	478.455	414.715
381	3.80000	35.785	-191.343	-448.277	173.530	127.300	-328.288	-192.198	-207.781	-141.867	438.053	44.266	190.893	-93.171	-694.906	-520.428
382	3.81000	-177.782	440.676	-92.480	-324.042	-498.312	368.937	162.191	84.113	377.949	-460.092	-13.471	-218.694	184.357	575.187	-114.888
383	3.82000	86.176	-587.053	346.833	214.700	423.523	-86.695	199.878	177.390	-582.739	313.905	-187.929	167.164	-403.425	-435.237	685.429
384	3.83000	387.181	737.799	20.166	54.290	-269.532	-93.332	-189.046	-300.171	455.719	139.527	427.698	-206.836	430.611	370.529	-402.515
385	3.84000	-384.258	-171.302	-271.175	-262.612	208.532	-116.881	-162.796	-16.305	162.550	-194.795	-150.849	398.970	-821.004	-59.856	-154.422
386	3.85000	-17.726	-393.057	444.504	-47.038	-303.586	100.021	314.904	340.825	-556.150	-131.135	-191.470	-474.414	1463.467	169.177	372.776
387	3.86000	-22.892	54.693	-393.380	421.421	203.252	275.421	104.408	-234.059	432.792	358.135	-131.183	-111.968	-1232.281	-506.600	-540.770
388	3.87000	98.011	210.116	25.577	-214.998	18.351	-433.523	-430.671	128.712	-267.124	-223.751	-121.111	554.034	730.902	378.591	282.354
389	3.88000	42.517	70.167	171.145	-152.906	193.026	181.825	289.255	-384.237	394.983	219.855	549.880	-523.186	-123.356	-181.231	239.528
390	3.89000	122.137	-310.804	-194.132	135.797	-275.928	94.341	-288.360	547.076	-246.512	-685.909	-76.057	368.069	-454.759	382.743	8.632
391	3.90000	-231.310	286.165	231.991	125.984	-91.460	-74.729	317.919	-390.978	-91.196	760.118	-368.385	23.144	548.237	-380.151	3.448
392	3.91000	-181.612	-516.532	-539.039	-347.504	408.022	-214.222	-240.434	254.159	20.527	-369.264	485.823	-20.675	-297.645	-9.651	-242.278
393	3.92000	349.586	688.139	639.706	302.881	-196.777	463.148	412.073	-42.863	169.732	257.567	-562.480	-125.725	48.145	390.043	86.533
394	3.93000	-43.798	-201.793	-184.755	-29.263	-177.631	-497.009	-255.200	-155.142	-158.402	-71.466	400.327	-111.573	-255.550	-845.926	-609.483
395	3.94000	82.624	-110.019	-15.852	174.161	-50.551	567.659	-11.199	-122.896	-279.051	-129.067	-220.256	64.421	269.728	679.947	786.926
396	3.95000	-321.865	-159.253	-170.994	-487.211	307.194	-439.647	-0.212	383.172	437.828	-190.535	411.270	124.692	43.087	-136.738	-95.604
397	3.96000	216.147	364.227	224.514	150.171	-192.474	-32.718	-136.255	115.605	132.130	317.399	-551.335	20.596	48.164	-38.564	-319.196
398	3.97000	1740.727	1506.488	-15.045	-1485.958	1166.693	450.969	-1470.709	-2437.908	-146.600	60.896	482.018	64.448	1901.706	-2491.845	-513.824
399	3.98000	-2695.817	-2449.108	-263.827	1874.370	-1325.469	-199.594	2196.258	3092.528	-342.252	-35.008	-303.406	-354.409	-3195.042	4701.334	1411.911
400	3.99000	1520.593	1042.143	229.947	159.907	361.286	-132.771	-110.222	-529.012	423.231	-119.950	-38.309	384.589	2112.987	-3767.974	-1396.382
401	4.00000	-1485.410	-906.082	184.624	-79.524	-866.914	-537.097	-873.828	-800.629	-70.891	-54.535	173.643	-59.085	-1810.091	2093.850	861.887
402	4.01000	773.615	75.364	-410.605	-717.565	1456.533	1036.630	834.051	871.099	-178.120	151.947	-80.563	-257.660	1186.836	-665.027	-281.612
403	4.02000	471.116	1024.857	114.872	-541.257	-902.703	-792.842	-1010.750	-881.102	43.596	-78.437	210.063	349.964	-662.818	572.568	422.039
404	4.03000	-446.377	-179.900	259.046	2251.107	-854.478	905.183	942.622	491.912	570.117	-212.771	-74.196	-119.613	245.841	-420.762	-378.563
405	4.04000	392.698	-356.617	74.577	-2613.692	1100.135	-320.871	-2712.623	3072.792	2895.318	214.885	-459.937	102.303	347.126	528.769	754.266
406	4.05000	-830.256	-261.285	-408.552	1378.877	-663.377	-900.810	-376.935	-37.661	1698.087	-37.279	528.693	-207.969	-698.790	-656.520	-372.010
407	4.06000	419.807	753.890	288.759	-605.353	149.072	1520.761	6557.571	-3168.826	-7867.258	-237.133	-387.559	182.050	1155.130	-401.621	298.542
408	4.07000	-119.657	-1371.375	259.855	-389.667	1735.268	-2142.221	-4974.667	-107.432	3410.216	700.956	367.320	69.442	1433.042	783.948	2063.342
409	4.08000	588.204	530.852	-905.645	1303.883	-2099.208	1805.612	1477.166	59.662	1843.801	-416.675	160.477	914.406	-1526.010	541.915	724.916
410	4.09000	-1078.956	381.350	176.460	-3095.671	2600.532	-4966.492	-1136.248	-308.524	1156.406	64.129	119.605	1053.749	-552.693	-843.909	-435.279
411	4.10000	1302.137	77.092	1616.153	694.056	-616.076	3864.204	1463.810	2157.503	2137.604	518.134	989.580	-34.629	-345.896	-1158.492	3187.661
412	4.11000	-1451.377	253.314	-2046.308	2913.663	-1426.313	-164.730	540.284	970.543	568.415	74.961	967.814	1190.350	412.272	1350.777	1973.012
413	4.12000	141.649	-106.653	2654.245	-1363.312	1515.140	-519.756	-1753.892	-2156.251	1367.419	3377.629	761.607	-4.245	920.903	1641.353	2309.169
414	4.13000	-153.474	2005.835	932.676	-223.973	-576.796	1981.135	-215.762	64.792	2789.654	-5225.460	-767.685	2940.137	-1411.567	-809.384	3937.941
415	4.14000	-24.049	-1599.328	2464.554	-775.254	234.272	1355.574	3445.766	4040.786	5662.850	812.865	1141.453	1836.621	110.785	878.365	699.335
416	4.15000	2102.227	1897.632	6500.859	3132.124	196.545	6744.319	-4181.916	-3962.474	-5385.685	1312.183	-585.900	5596.920	-273.683	-363.623	2948.187
417	4.16000	-2164.161	-972.433	-593.486	-2843.189	1106.933	3212.645	1193.265	1946.650	6655.260	-1423.465	-1022.398	-1777.450	1104.224	1955.367	821.977
418	4.17000	-284.761	1285.609	6730.064	210.695	-559.798	-3270.252	-604.847	-852.847	-3067.216	1744.834	1504.220	6637.995	-692.619	-282.391	1197.600
419	4.18000	549.265	-606.938	1408.632	3441.184	1111.339	9442.216	2227.461	1949.981	6329.724	-2770.058	-995.618	-4467.066	1243.503	937.588	2970.758
420	4.19000	1265.319	888.700	4581.641	-3520.116	1338.562	-5363.013	-2422.248	-229.852	-4841.637	-240.804	1955.584	8812.011	-1403.470	-292.431	2956.132
421	4.20000	8.637	2125.255	458.998	865.711	1754.389	6292.115	1985.604	320.128	6070.058	3176.323	959.657	1423.278	-663.371	1132.696	815.626
422	4.21000	-286.065	651.885	3455.764	-305.818	1874.639	2162.295	930.435	2885.103	654.772	-2247.099	-1962.727	187.076	3161.681	1585.832	2533.970
423	4.22000	979.246	1361.791	2020.217	2623.159	-4613.830	3226.708	-1379.683	-1143.245	2236.519	-1587.701	38.104	2178.255	-384.412	-547.324	1251.752
424	4.23000	-349.652	-1354.557	4897.839	-2490.957	3561.031	-672.841	490.264	1454.741	-972.254	2682.587	1669.265	1789.353	-922.418	200.560	4095.395
425	4.24000	-20.815	232.914	-931.874	-286.281	209.479	4494.587	-224.431	-10.334	3435.158	-2217.157	1122.072	655.041	970.669	789.045	-385.187
426	4.25000	148.419	2764.884	3522.903	544.134	692.788	-1396.126	1875.701	2838.286	-181.066	2776.898	1369.196	3025.728	689.105	848.104	255.234
427	4.26000	2503.499	1961.619	-151.113	3841.620	1427.436	4823.206	-638.854	-2059.956	3670.414	5668.653	3241.408	3066.241	2239.318	2649.145	4105.513
428	4.27000	-2202.746	-2942.100	2008.683	-1444.422	2116.372	131.106	3671.739	3257.146	2614.029	7744.995	2552.266	4528.279	-2712.196	-704.796	-188.214
429	4.28000	2657.049	1974.200	-284.127	11.791	-1404.634	4776.626	-768.500	-593.137	385.460	-8665.270	-768.539	-2800.519	-7.260	-701.427	1292.093
430	4.29000	-489.473	1395.387	2165.483	2515.329	1838.353	-1153.042	-1807.009	-204.975	2831.963	-381.919	-2218.926	1880.946	2944.364	3420.597	-600.938
431	4.30000	-1183.468	-1637.491	424.041	-3307.350	3986.622	4604.261	1735.810	3330.747	97.948	216.290	3584.487	1710.353	770.861	-1623.541	1818.036
432	4.31000	3247.312	4271.313	1585.906	2100.207	-4254.759	-474.664	-339.060	-1242.322	-816.591	-846.805	-3841.672	-1651.280	-696.246	-206.001	-2949.910
433	4.32000	-1980.476	-2744.368	-289.841	3887.248	3064.783	471.786	2662.250	3665.518	4420.167	919.201	4809.904	2531.664	1948.327	2973.362	4422.086
434	4.33000	2399.471	3014.658	-2531.209	-2971.308	-817.067	2398.375	-1757.716	-4015.286	-1625.962	-137.447	-2743.420	-1139.004	-289.408	-1336.307	-256.811
435	4.34000	832.238	-1457.348	3686.116	2100.027	4580.699	-2423.329	2265.225	4984.180	2033.981	2210.740	3370.813	1751.142	-372.562	2889.123	-1176.695
436	4.35000	-2077.582	-231.862	-3105.815	-1537.085	-4303.867	-309.753	548.320	-2483.198	1146.748	11.817	-1505.177	-530.045	2042.684	-1631.501	-39.728
437	4.36000	2508.761	2788.257	2419.208	1363.498	4324.502	2425.371	-210.181	2394.392	-1235.919	-200.210	3666.932	83.679	351.086	1850.883	979.440
438	4.37000	1151.868	84.732	-2481.540	1867.152	-3960.947	-908.559	1819.624	-902.038	2469.406	1357.997	-2251.575	408.564	-186.192	201.063	1395.402
439	4.38000	-315.014	3640.162	2259.373	141.918	4486.386	0.547	-1270.283	2961.370	-1574.364	393.183	778.032	-1125.821	2026.092	2147.761	-3275.573
440	4.39000	696.140	-3143.765	-2291.409	-151.264	-59.731	2068.288	2538.002	-1781.783	1618.293	937.147	2585.970	2188.989	-396.487	-1441.195	4143.658
441	4.40000	1769.913	2754.529	-324.388	1444.592	635.287	-4362.788	192.501	2355.276	-1142.776	-488.903	-634.769	-3318.643	211.489	1893.374	-3680.866
442	4.41000	-895.696	-497.099	-663.615	132.780	176.280	4650.292	-46.056	1339.584	1455.513	1186.136	1718.182	3284.042	83.419	118.781	566.458
443	4.42000	329.742	-153.667	-508.476	1907.707	1044.602	-1406.978	-3131.825	-4067.738	-3032.515	460.156	-1230.049	-1563.607	384.347	1455.049	-840.477
444	4.43000	1425.971	2492.172	979.215	-414.925	-2311.322	-463.471	7059.302	4832.883	3424.357	-1101.718	1311.210	-1494.248	882.521	-399.865	-976.675
445	4.44000	1198.508	-139.052	-2454.094	-75.978	3745.935	424.256	-3137.928	1075.617	-2472.541	1835.478	1093.213	945.405	-388.910	3447.004	655.881
446	4.45000	551.094	2967.307	2882.351	2035.857	672.651	125.053	841.058	-2437.172	2092.931	256.653	1600.148	-1044.611	1517.493	-1673.239	99.252
447	4.46000	-850.767	42.170	-4373.537	2059.015	55.305	1503.121	-1402.194	1036.796	-5291.961	164.573	-2673.199	-234.757	-1560.064	-597.010	-4609.962
448	4.47000	1018.731	-2156.109	2011.931	-3448.606	-487.713	-3723.158	3760.794	3362.092	4819.020	-572.201	3329.762	267.646	3933.858	2899.241	3226.343
449	4.48000	132.604	2744.487	-1283.607	1164.296	1274.790	1101.958	-1866.217	-2135.399	-4490.841	2499.480	-79.874	-918.704	-2588.134	-2487.845	-5356.516
450	4.49000	890.371	-982.856	607.754	944.280	556.041	2995.193	-547.121	1019.367	-777.536	-2822.550	-3720.040	-2732.370	732.640	3352.913	570.620
451	4.50000	379.045	3108.335	1948.463	995.662	-2322.270	-4323.151	2281.978	-1178.793	790.060	-2492.488	2639.331	464.487	2288.793	-1991.400	91.723
452	4.51000	165.265	-1798.449	-3301.282	-228.001	3290.493	-906.518	-847.726	1867.196	-2593.304	4416.959	1143.021	-480.581	-2615.750	3189.970	1203.986
453	4.52000	-695.885	-157.346	-284.966	-833.253	465.926	-111.284	959.902	1254.436	222.288	-5206.657	-145.056	-4883.331	1993.840	-2215.187	-5295.366
454	4.53000	-59.441	858.361	622.706	1143.661	173.661	-2146.725	-805.885	-1592.638	-2157.022	8910.267	1257.464	6495.160	-2397.548	3844.243	4018.119
455	4.54000	1340.438	627.348	-3785.177	344.205	-618.121	1236.718	342.752	2618.020	-802.451	-1838.657	2589.735	-4162.449	4011.652	-991.683	-343.447
456	4.55000	420.209	1608.444	4233.673	1572.573	1568.100	-1777.729	-242.335	-2101.722	1114.698	5365.785	-1298.531	3890.159	-3296.122	872.148	-1735.852
457	4.56000	1247.923	28.937	-3022.102	-1585.512	-2488.673	-1865.933	2413.803	4195.703	131.497	-5345.597	-567.053	-3213.403	2668.333	-1220.383	-2530.946
458	4.57000	-42.287	493.900	-1256.340	-1680.283	3845.188	-627.842	-2286.573	-3543.695	-4236.225	5662.108	5141.824	-151.064	-1367.667	2220.836	2681.666
459	4.58000	-462.166	-15.948	2196.739	4875.486	-1621.731	-377.629	172.358	1667.473	1374.303	-6888.797	-5053.747	-4229.455	824.613	1.830	247.467
460	4.59000	572.489	654.582	-3238.554	-830.178	1212.760	-819.485	2068.741	-820.053	-1305.169	2434.697	2836.475	2228.219	1947.134	-254.219	-1317.273
461	4.60000	-2987.700	-3285.404	-1666.535	-646.381	1030.949	-1085.621	-812.602	2592.470	-536.100	3194.291	1179.347	-1028.187	-1903.937	-137.176	1339.811
462	4.61000	3477.916	3359.246	370.159	946.544	-1190.820	-1165.097	694.224	-1680.380	-3310.267	-3163.902	-1552.591	-611.800	511.721	4.976	-5269.550
463	4.62000	279.956	715.088	336.312	-624.778	1274.536	-1575.343	853.914	2895.653	3480.433	1803.116	3350.306	-1809.030	382.381	4220.217	4248.546
464	4.63000	497.692	1214.426	1503.500	34.518	-515.117	-4543.912	-922.755	-2079.401	-3016.286	-639.104	-3727.883	-2088.457	491.631	-4137.987	-1402.637
465	4.64000	536.489	39.186	-3866.464	-851.977	1294.273	2849.341	668.495	2093.197	-320.843	222.319	1267.927	2323.413	-908.382	3257.852	-1370.345
466	4.65000	-1671.286	-2824.431	-2181.717	4102.321	-1545.735	-846.956	306.015	-1832.234	-2731.317	-103.364	-45.115	-2947.662	3156.248	-2889.159	-1486.038
467	4.66000	1293.235	3108.259	811.546	-2962.333	1342.977	-2995.490	-213.603	1093.134	967.896	696.018	1320.338	-923.205	-636.227	5074.876	1562.606
468	4.67000	-114.219	509.754	-2339.808	1722.645	1939.557	895.098	39.606	-191.007	-398.983	2043.691	1218.186	1015.471	-968.118	-4133.534	-1531.125
469	4.68000	2442.182	265.140	1211.640	-43.160	-2851.439	-2158.058	2260.409	823.947	-729.136	-2357.934	-1380.825	-2630.766	425.021	1326.445	1203.134
470	4.69000	127.271	-88.982	-307.050	-955.674	1889.666	-1319.042	-1816.736	1174.164	93.510	3065.728	2004.096	1603.479	1926.531	345.960	-2092.132
471	4.70000	-2313.172	-6.108	-2529.879	699.241	-235.030	1321.773	1525.271	-1676.455	-1413.113	-1401.847	-1079.907	-3090.301	-166.019	743.215	-1205.946
472	4.71000	2731.227	263.769	-202.677	1570.404	1460.362	-1903.570	1038.491	2323.149	-334.267	-870.356	449.532	-218.414	-208.427	362.050	48.570
473	4.72000	-986.835	-88.633	-2207.913	445.282	-2200.132	-472.377	-623.285	238.013	53.065	1901.086	919.056	-125.525	1989.380	1177.549	-699.056
474	4.73000	302.091	2900.586	78.698	-561.909	1622.995	-1402.240	635.373	-1714.938	-3275.043	-588.236	109.169	-1879.077	-1830.115	-1376.816	-2819.384
475	4.74000	1301.358	-2353.442	-829.135	587.185	2334.864	1669.272	-1361.927	2028.071	1714.082	1399.830	-614.847	-216.321	1175.678	729.580	-917.593
476	4.75000	-1024.096	1310.675	147.616	1761.838	-1845.934	-1869.126	2483.181	-174.424	-1391.602	252.828	1320.669	1536.976	570.855	716.269	-461.816
477	4.76000	3262.528	-365.102	-171.198	-876.142	601.298	93.776	256.505	-992.010	-2028.174	747.779	687.737	-2838.155	-689.811	-55.940	-949.946
478	4.77000	-490.812	1516.825	-1331.321	1083.670	34.066	176.656	-216.077	1465.418	107.545	1401.056	-1629.746	-462.799	604.082	-545.677	-1781.874
479	4.78000	360.454	-634.065	160.116	349.082	385.836	-1738.804	2371.389	1292.322	-63.213	-1967.849	1539.454	-2026.711	2257.464	475.407	1663.942
480	4.79000	55.435	-1312.758	-1300.969	2179.688	1938.360	461.508	-401.554	-408.202	-1026.744	2117.629	-1565.477	1588.887	-841.014	1120.966	-2251.660
481	4.80000	-2334.455	88.295	-1983.026	-1345.878	-1453.090	-1072.692	-1130.665	-888.618	-2463.581	-251.273	2021.725	1.316	1324.256	293.581	-54.419
482	4.81000	3711.889	641.434	126.207	-1008.781	37.244	-2407.277	2491.600	557.709	333.185	247.944	-312.156	-2963.147	797.981	-699.178	-2232.563
483	4.82000	250.760	1194.554	54.786	2931.588	494.566	1565.257	112.461	825.594	-293.383	2422.601	-437.368	1238.957	-262.765	1923.993	-107.864
484	4.83000	1455.933	1902.154	666.289	-200.642	1159.537	-1275.152	-720.207	-886.555	-268.461	-1729.200	1516.854	-3120.596	-194.791	-875.581	-588.684
485	4.84000	469.028	-1134.288	-2041.956	563.048	-579.278	-59.327	1788.116	2560.972	-2214.424	1591.283	126.296	983.627	1287.774	409.516	-1099.661
486	4.85000	-3224.862	-1901.358	-1171.954	-27.626	1191.494	3106.444	1928.811	377.412	2766.355	-45.042	-960.488	1027.600	885.841	-894.295	-159.147
487	4.86000	2798.533	1675.482	-805.106	62.433	-309.758	-5549.574	-1365.510	-1005.486	-2786.107	1521.065	1695.827	-4930.374	452.926	154.601	-2126.212
488	4.87000	1172.634	30.311	1708.497	2405.075	1291.442	1393.607	231.551	-284.610	-819.336	-1885.428	-1591.967	2683.990	404.732	612.986	480.277
489	4.88000	2194.727	2910.492	-2236.396	-977.681	-2023.301	-383.145	1130.893	530.297	-253.071	2531.778	2323.792	-865.251	538.021	1603.361	27.755
490	4.89000	-3494.348	-4546.936	-426.381	240.518	1650.195	-2021.724	-1009.571	-1326.258	-324.798	1894.611	-2323.966	-957.588	770.137	-2340.377	-1765.967
491	4.90000	2376.751	2727.884	-1795.992	1196.277	-1095.357	2078.005	3362.224	2570.268	-513.147	-2296.825	2096.046	-1157.570	1117.752	1760.067	1475.407
492	4.91000	-118.424	-1929.644	1774.624	213.209	-17.737	-2206.644	1074.932	524.164	1403.804	2826.618	-529.930	1363.404	-453.305	-314.179	-2698.184
493	4.92000	20.204	3592.571	-2595.511	643.294	3235.637	-1438.504	-2117.065	-1522.848	-4543.771	-2592.533	-800.738	-3505.179	1017.272	-451.549	216.792
494	4.93000	3496.822	-542.337	1002.209	-440.359	-1460.227	223.635	2672.828	1158.207	4876.109	3359.288	3495.464	2714.473	185.427	914.903	1462.358
495	4.94000	-2610.814	-3378.757	-1521.013	2387.909	-664.248	-229.582	-2939.777	-1114.668	-4469.038	-1105.640	-4334.510	-1663.684	975.353	1380.770	-1431.610
496	4.95000	1251.758	2321.036	32.406	172.298	443.577	281.902	5210.914	3916.689	1320.383	2872.847	3425.363	-795.006	-267.934	-2345.922	-869.766
497	4.96000	2235.840	2369.923	156.095	-2162.338	573.163	-2632.521	-2185.159	-4797.836	1341.312	-1487.199	-1271.849	164.582	2604.666	1360.470	1332.517
498	4.97000	-1231.721	-2354.810	-876.711	2286.214	562.400	991.525	220.233	2846.555	-3289.211	138.332	1575.826	-52.385	-1053.821	-246.820	-2083.658
499	4.98000	-779.654	-349.799	-1366.968	303.177	-1772.207	-181.457	2562.615	420.485	1213.309	2665.705	4.318	226.716	301.369	1376.779	583.018
500	4.99000	740.872	165.147	120.919	1432.065	3720.275	-1070.718	-314.132	1343.949	-1855.820	-2355.816	-1942.561	-3410.975	1707.692	-1135.468	-723.419
501	5.00000	2789.053	454.888	1685.284	-178.111	-2769.919	61.992	610.548	-3223.824	5062.961	3205.340	2998.019	4656.249	-591.741	-205.067	1931.522
502	5.01000	-1317.790	1042.032	-3253.484	-1941.418	2939.453	-1060.808	-716.236	1978.863	-6929.814	-1322.290	-2104.499	-4915.180	2401.024	-66.609	-1903.958
503	5.02000	846.306	-1114.487	932.740	4422.216	-2529.985	-193.163	2666.432	2002.617	2888.450	1108.827	2088.574	2068.094	-1438.632	2641.600	310.835
504	5.03000	-95.706	118.846	-1610.253	-1823.681	938.309	949.432	194.293	-2209.516	-685.551	409.603	-1296.944	-1279.579	2413.927	-2041.284	-701.380
505	5.04000	2907.344	2815.161	1612.725	355.547	2404.018	-815.487	-655.857	169.376	2055.224	1332.432	2153.598	308.590	-997.593	-428.106	-1264.644
506	5.05000	-2528.904	-3587.397	-164.470	1370.502	-3228.302	-1007.795	1769.220	2763.127	-2673.405	564.945	-2402.016	1184.759	1506.275	36.378	1096.300
507	5.06000	1169.855	755.736	-62.205	706.914	2881.008	850.408	606.588	-1398.523	-1713.122	-783.931	477.355	-1833.718	1098.751	2621.491	-1444.238
508	5.07000	469.385	2414.124	-2117.008	-687.410	1007.249	-1049.973	-601.328	592.320	519.462	584.170	2419.384	-1345.764	215.177	-1149.657	3179.918
509	5.08000	2522.968	-1118.565	1176.509	1192.290	-1810.053	-875.055	2092.140	-119.817	112.545	2005.096	-1094.508	1914.345	-1116.037	-537.818	-6029.148
510	5.09000	-2438.742	-189.714	-1506.485	26.085	1409.353	747.465	-2078.924	375.910	-239.090	-1392.532	765.825	-2230.736	1446.237	306.068	5500.620
511	5.10000	2494.707	667.476	2913.572	-896.399	-1250.186	184.593	2141.164	-83.912	-73.465	3964.430	-680.875	3755.514	2107.425	1432.508	-3614.722
512	5.11000	-1378.943	-5.912	-3159.315	3870.413	1178.545	945.791	86.970	-1531.713	316.854	-3969.569	6.183	-5324.891	-1118.463	-1213.103	2183.516
513	5.12000	1730.808	-1023.513	2080.400	-1029.532	118.376	-829.673	1927.282	2878.690	1682.562	3677.851	1124.040	4944.566	460.845	131.650	-4025.500
514	5.13000	440.949	3007.889	-1642.582	1643.462	-213.976	-2.621	-413.899	347.065	-3156.711	-1740.502	-319.039	-4791.209	1713.466	1732.403	4629.239
515	5.14000	752.570	-2883.563	1578.876	-2428.546	2103.257	-1412.756	1064.341	456.049	1288.407	1668.292	-392.334	2713.195	524.047	-2552.870	-4774.263
516	5.15000	-1356.472	90.682	-1810.984	2497.184	-1995.156	615.519	1846.451	-1033.630	-1843.008	646.352	1123.200	-1653.673	-881.713	1802.962	2543.292
517	5.16000	3412.229	3725.515	555.194	-1301.988	2264.068	-1200.340	-1659.223	1274.160	1152.703	792.654	-1093.469	1534.697	2230.268	834.502	-1304.269
518	5.17000	-2254.681	-3473.157	1019.742	2356.487	-463.315	2119.125	1229.465	255.138	-1084.733	272.750	2124.662	-1558.034	384.905	-1202.372	1036.005
519	5.18000	2844.954	3502.298	-1837.658	-94.730	547.097	-1245.798	-565.913	-1131.716	950.588	1642.266	-1400.262	1444.845	-1777.297	-1544.749	-883.622
520	5.19000	-1903.124	-2378.223	2624.523	1403.618	-996.332	215.301	1926.410	274.855	-1150.983	-2321.566	1355.538	-1805.524	3333.114	4318.876	2088.253
521	5.20000	2649.002	-125.754	-495.263	-700.724	-316.192	-188.775	-92.097	815.089	1127.093	2438.027	-240.819	2039.891	-1749.451	-1560.979	-2558.950
522	5.21000	-694.456	2238.398	-813.622	-16.989	2818.841	511.101	629.522	348.567	-1598.389	-352.621	230.587	-2839.814	2880.364	2002.382	1237.711
523	5.22000	962.121	-1599.885	738.380	146.387	-2430.488	-978.670	1106.100	36.577	2428.007	1182.865	-315.936	3051.510	-589.765	-2614.843	1238.753
524	5.23000	374.365	2638.360	-1003.542	2556.571	1232.001	490.462	-397.946	879.730	-2683.463	-28.522	1324.453	-1712.114	476.904	2120.238	-1786.862
525	5.24000	342.593	-3097.823	1934.798	-812.673	758.339	1594.629	331.419	-696.772	3902.453	1971.744	-1403.132	1973.325	-808.766	-1082.576	894.092
526	5.25000	2056.518	5519.820	-36.140	2948.697	-2119.408	-787.432	1558.968	-130.102	-4220.035	6.080	1803.951	-2034.438	1309.515	79.626	117.291
527	5.26000	-1834.424	-4954.638	-1649.376	-1956.209	3005.514	-1055.386	1680.279	2949.421	3216.238	276.337	-2235.560	1286.278	2597.038	2031.340	-620.003
528	5.27000	4102.556	3123.281	2446.806	-398.008	-1883.604	1539.029	-2951.446	-4741.501	-3559.674	-825.534	2679.928	-526.368	-2447.309	1607.763	-964.724
529	5.28000	-2855.503	-2456.495	-2556.943	4419.645	279.362	580.009	2865.592	5388.513	4240.105	2746.309	-1736.999	1910.153	1479.115	-2915.820	3562.458
530	5.29000	3704.072	3139.942	1197.361	-1738.815	1700.232	-507.225	-929.437	-5233.547	-4313.978	-471.390	2076.430	-2321.703	1017.152	-68.097	-4513.609
531	5.30000	-1945.505	-2269.496	-198.801	-316.976	-1042.900	-881.367	1057.378	2600.022	4749.845	852.996	-1316.611	701.653	154.542	2412.923	2200.030
532	5.31000	2102.070	2817.352	71.600	3514.974	26.460	1861.374	-99.870	628.430	-3636.090	-1077.647	706.283	6.145	738.364	-3270.284	-1266.856
533	5.32000	-733.893	-2188.258	-983.814	-507.308	-512.585	-310.322	1152.814	-756.052	2348.385	2977.894	1644.913	-138.811	-135.083	3875.571	905.291
534	5.33000	2325.042	1116.655	2416.683	-1236.873	-467.098	-1192.378	1090.517	952.631	-2635.294	-1377.324	-3685.470	-997.837	2070.108	-3220.886	-1972.959
535	5.34000	1110.577	3901.685	-3447.267	5106.251	806.495	771.048	-407.000	-320.123	2108.514	1801.536	3238.472	2300.708	-2715.929	4264.800	3132.324
536	5.35000	-772.640	-5722.268	1280.330	-2283.204	73.475	789.657	1458.065	-679.565	-23.674	993.224	728.471	-2376.087	2188.865	-2329.049	-2659.218
537	5.36000	1084.779	3809.185	72.370	-305.585	2021.404	-3001.692	538.218	718.981	-106.548	-1516.136	-2584.485	429.210	1638.942	1862.856	1101.757
538	5.37000	490.308	-1247.527	-623.340	2710.390	-2262.115	89.292	-1271.561	-1756.158	268.113	3115.791	2795.059	2226.153	-1858.936	-906.473	818.390
539	5.38000	245.931	-534.423	-834.108	-478.165	278.158	1136.969	1616.432	1249.759	1172.370	-911.539	-3411.292	-3343.746	2606.123	2739.944	-47.588
540	5.39000	1960.596	2338.203	-192.241	1038.583	484.391	-1084.345	714.084	1078.349	-1041.290	1446.874	2940.805	3279.969	-1311.260	-3027.794	814.616
541	5.40000	-827.042	-1116.976	-458.377	2023.051	-137.971	1004.149	-1298.356	-2899.090	125.836	-580.971	1148.929	-4400.560	1381.240	2101.328	-4816.027
542	5.41000	1118.494	-697.612	-1360.306	-263.588	1135.387	-378.724	3088.894	4118.785	-895.509	621.823	-2314.382	2067.387	974.420	-2498.421	3950.202
543	5.42000	1649.350	1867.246	1106.570	-705.093	-2407.165	-2134.126	-873.161	-2881.015	-2.726	555.643	1540.642	-545.662	1418.936	1317.711	-1079.516
544	5.43000	-907.312	-670.381	-530.548	2020.954	1936.652	2879.344	796.213	316.170	161.303	1029.623	-505.132	1169.608	-2525.299	793.724	-923.247
545	5.44000	1516.280	311.387	-945.021	1403.515	193.292	-1375.059	365.268	617.611	-961.533	-545.201	-1275.496	-1955.599	2323.241	-810.976	-6.777
546	5.45000	933.099	1213.360	1216.161	-1844.254	-2305.613	-2827.399	-565.181	-1758.902	359.070	2196.164	2354.775	-846.337	266.552	1367.562	-984.442
547	5.46000	525.428	827.286	158.881	2751.285	1009.388	2286.079	1679.698	3364.081	57.941	-323.721	-904.992	539.672	-183.717	214.306	764.361
548	5.47000	-744.858	-3222.282	-2331.286	633.557	1315.770	-1165.809	-227.473	-1302.725	-2391.007	194.039	-1799.798	-1151.457	1702.137	-1023.341	370.793
549	5.48000	647.030	2058.500	1426.496	-2986.428	254.234	-928.934	585.167	-564.865	1085.090	1314.299	1858.170	455.414	-1608.477	1094.232	-3636.672
550	5.49000	3131.588	2206.302	-342.139	5248.128	-3821.258	1821.078	454.029	-478.563	-1118.121	108.710	1042.303	961.443	2230.167	-727.566	4210.274
551	5.50000	-1347.418	-1433.039	-1368.129	-906.719	2723.629	-2556.881	-916.865	-503.150	104.424	-296.260	-1083.921	-1260.153	-938.269	1324.153	-3690.029
552	5.51000	1309.330	-513.493	699.368	-3032.748	-2421.806	1224.226	2096.038	357.450	-94.290	568.140	-32.332	-1151.861	-164.385	-241.715	944.059
553	5.52000	-1336.011	-310.988	-1179.391	3663.167	3042.722	191.640	370.117	39.846	1366.612	2230.931	1225.899	1067.395	623.043	152.967	-815.784
554	5.53000	1733.554	863.876	1485.941	1121.445	-2373.407	-1261.569	-817.478	-121.927	-3149.928	-1585.851	-1058.335	314.872	1727.269	-848.792	-303.756
555	5.54000	-3.646	122.079	-1562.209	-947.143	2037.736	2312.752	1035.297	1200.962	-64.485	281.336	152.483	-1407.117	-627.234	2338.288	-338.960
556	5.55000	1833.194	178.821	248.966	2199.012	705.463	-2631.351	-1090.278	-3405.054	876.869	3336.016	-362.759	503.991	584.414	-845.792	-59.331
557	5.56000	-203.816	-493.130	-362.580	-2535.485	-923.927	290.069	1465.246	4044.334	-521.969	-2648.892	540.290	-1128.471	344.875	-432.418	1097.033
558	5.57000	-885.655	-1018.960	-94.012	4122.385	-1314.554	2043.166	1655.171	-750.055	1282.109	1366.112	551.272	725.412	-204.701	1099.196	-1133.719
559	5.58000	1433.148	2642.274	-1582.514	-2007.299	608.312	-2308.226	-105.730	-1491.237	1319.137	-383.561	-828.586	-279.407	-69.272	526.394	-808.736
560	5.59000	374.340	-351.721	1649.623	2125.122	17.528	185.439	-844.193	788.900	-2800.524	346.302	547.565	-104.565	1453.638	-40.600	1062.087
561	5.60000	1992.083	679.570	340.767	-884.334	699.003	355.417	1070.625	657.383	1406.432	1481.449	-1027.002	-1312.637	932.702	-1816.067	419.534
562	5.61000	-1815.914	-378.195	-1680.088	758.072	1230.116	-2355.217	117.928	943.999	-641.399	369.317	1743.989	1881.335	859.328	-49.510	1125.134
563	5.62000	1672.269	-38.515	872.233	987.094	-3080.300	2645.458	1079.236	-1477.345	-887.432	1119.877	605.050	387.094	-1913.869	2310.054	-2769.360
564	5.63000	657.983	-643.753	593.039	-298.703	3213.075	-1536.822	-91.945	246.010	718.310	-926.816	-87.104	-2360.670	2613.658	-736.117	1797.779
565	5.64000	-738.937	-237.848	-763.796	-548.424	-960.599	1404.508	103.558	708.368	-1484.482	1260.316	-331.662	2026.961	-1413.216	-489.338	-1876.580
566	5.65000	966.787	885.003	-629.613	1778.247	980.155	-804.681	833.462	-383.939	1833.595	-725.004	281.294	-1053.139	2531.141	989.436	1489.594
567	5.66000	-263.011	26.167	733.608	-1460.830	-770.265	-1240.886	894.187	1217.819	-1111.912	981.978	-1285.581	124.471	-1061.325	628.229	-2723.541
568	5.67000	-13.034	-837.492	-928.018	2088.219	-755.646	2470.980	-1481.919	-2138.566	1524.641	355.798	819.903	-302.390	428.976	-1293.872	2715.089
569	5.68000	1434.171	785.767	689.512	-295.118	-655.623	-3652.311	2496.933	2028.104	-981.571	206.848	-170.680	-358.106	-572.624	-258.058	-489.154
570	5.69000	-722.474	596.431	141.905	690.522	1685.825	2099.101	-1433.043	1000.815	191.218	584.904	737.088	213.500	2312.440	1820.515	-242.275
571	5.70000	1662.264	175.601	795.729	1062.547	563.855	597.796	1694.910	-2224.618	-2406.169	146.305	-414.156	167.092	-2396.760	-1074.568	-2609.195
572	5.71000	-167.038	258.654	-478.489	-2545.968	-873.733	-1944.510	65.253	1144.422	2869.223	1882.001	231.289	871.496	4101.289	880.445	4008.267
573	5.72000	699.051	-585.613	-141.998	3242.834	408.271	3892.893	-93.219	-1000.207	-3692.599	-3116.780	-885.923	-3041.950	-1821.497	-1389.610	-1736.737
574	5.73000	-1298.066	13.697	-327.702	-945.158	1231.345	-4435.396	-1746.942	-1.343	1584.388	2783.702	1828.366	2635.821	15.166	624.329	-701.969
575	5.74000	1111.939	-66.716	-946.533	2102.569	-1212.282	2778.728	3548.700	1961.950	1080.923	-575.780	-1100.176	-216.905	1188.426	-931.488	1084.417
576	5.75000	608.363	-132.660	341.802	-2196.499	1061.370	-605.171	-79.008	-617.965	887.047	-48.321	316.803	-1652.648	-81.719	2070.985	-624.632
577	5.76000	85.150	217.059	412.649	-1133.501	-877.280	-1640.031	-98.079	700.143	-767.160	1188.004	742.007	1615.910	2339.470	-1158.285	-46.567
578	5.77000	812.388	-687.024	1078.307	2615.445	-2225.931	563.270	1133.558	-1395.572	-133.746	-567.204	-525.384	-141.732	-3206.996	-696.469	-1603.817
579	5.78000	-1370.569	961.403	-3968.693	-1495.827	3973.334	784.605	-619.047	1726.963	901.775	56.576	-524.998	-1314.805	1920.499	-580.031	38.220
580	5.79000	2056.678	-572.243	3602.204	4532.126	-1920.413	1414.166	579.308	-577.434	-2099.036	1870.444	445.094	703.486	1546.032	1281.883	1874.340
581	5.80000	-979.848	-61.288	-2093.918	-6866.948	1794.962	-3838.199	-549.170	-1267.773	-505.466	-438.688	-174.391	3.927	-1572.762	1498.352	-1148.311
582	5.81000	137.208	-573.935	-708.895	6794.709	-1986.725	1915.175	1014.833	1905.846	2052.944	811.050	230.588	-823.379	1993.228	-3808.555	3121.156
583	5.82000	781.543	479.073	2688.663	-1516.520	2463.010	-1180.099	1216.537	-580.580	-1951.351	-465.049	779.445	642.028	-1977.969	-296.478	-2904.390
584	5.83000	-312.450	1133.005	-2074.614	-1789.110	-1159.138	-210.289	-1840.591	-1100.203	959.628	-385.421	-1140.076	-40.199	2687.297	4450.541	1362.518
585	5.84000	570.826	-1593.805	1529.821	1830.311	-1221.277	1582.392	3010.418	1482.450	-731.011	1597.059	1331.064	655.197	285.423	-2306.595	1067.295
586	5.85000	878.101	530.685	-336.421	-378.350	863.583	-4263.208	-1656.059	2239.455	3439.552	-197.315	-314.888	-651.487	-2266.398	554.701	-1084.146
587	5.86000	-1888.924	-89.223	-2004.941	-161.451	1917.670	2693.085	1331.189	-3204.019	-5372.984	-65.196	770.822	-646.769	2619.795	1664.997	-855.122
588	5.87000	1568.647	-473.082	1269.455	2550.322	-1804.019	2034.194	-1936.850	430.194	3055.745	1040.869	-973.572	1305.478	-379.356	-1826.256	1760.155
589	5.88000	431.965	1925.422	1481.179	-3357.455	1002.113	-3886.430	2600.033	623.353	-781.140	-54.189	875.128	-234.254	-1683.281	-418.987	-3362.403
590	5.89000	-136.462	193.759	-1743.612	2023.409	-998.868	3167.059	-517.765	1409.484	2157.835	-1302.955	-2235.422	-3369.477	4070.900	722.951	3079.135
591	5.90000	237.210	-2270.828	1104.395	1918.909	2513.661	-333.247	2265.219	-2487.322	-3023.749	2687.186	2245.145	3100.524	-1151.247	-318.831	-1317.735
592	5.91000	408.209	935.612	-1895.370	-3524.991	-628.781	-1535.088	-1341.319	4010.030	3161.991	-1003.284	-1157.505	-811.342	655.640	1624.866	-340.040
593	5.92000	-240.845	-461.824	1443.595	3068.268	-3187.001	233.961	-54.106	-4326.031	-5041.378	-486.097	1104.111	-400.394	-238.670	-1754.935	945.934
594	5.93000	1642.526	1637.994	-16.136	-2040.215	2983.542	854.882	-420.583	3130.710	3570.035	2054.099	-623.725	1567.655	1413.950	-1291.233	-1058.585
595	5.94000	-1527.564	-599.294	218.597	507.484	934.826	-3145.090	1067.011	-3499.507	-4271.344	-209.135	1225.294	-842.197	-1835.117	1287.347	50.809
596	5.95000	976.342	-814.846	14.976	2204.712	-819.553	5984.013	1412.715	5537.422	5841.099	-814.510	34.322	-81.766	2137.077	-1252.038	-291.114
597	5.96000	-1033.842	-479.515	-1811.742	-93.865	-48.476	-4909.768	134.052	-3720.716	-5024.790	1289.666	-370.275	146.579	-1339.213	1257.802	-917.286
598	5.97000	607.164	400.304	416.648	-1036.967	-301.953	4225.425	-1901.190	2549.213	5529.087	-834.090	894.436	-664.680	1178.267	1977.411	596.905
599	5.98000	1397.792	1416.382	-1015.155	909.205	1780.073	-547.008	4013.382	-1081.037	-1279.702	9.014	-1074.528	520.737	862.061	-1573.249	-708.463
600	5.99000	-3217.184	274.898	-5846.942	202.883	1569.671	3143.310	-3731.658	1665.807	4680.101	-510.208	-97.069	1383.472	-2704.161	1875.911	-1783.268
601	6.00000	2272.769	-974.481	1834.879	-2405.039	-3580.795	-226.694	1412.529	-637.152	442.775	-2685.760	954.319	-4157.959	336.946	-1571.932	-7309.134
602	6.01000	-724.775	1340.723	-3647.511	4078.233	157.182	5515.725	-462.008	737.677	3076.047	-34.995	5059.292	-462.696	499.687	-212.842	2693.704
603	6.02000	-1379.997	-1706.139	-1861.773	-2626.461	4438.169	2671.966	-1490.524	-2742.007	331.366	1810.255	-6823.877	7004.318	-147.177	-34.353	-2409.268
604	6.03000	1231.804	201.530	-1921.834	-2645.642	-3436.985	-480.683	809.840	2180.037	1203.337	-332.131	3975.542	-2819.864	340.260	-78.689	-3312.361
605	6.04000	-2187.663	172.814	-859.368	968.114	155.129	378.588	-1536.325	839.106	5763.556	-3209.610	-1732.051	-410.706	-2795.065	601.151	176.725
606	6.05000	855.795	994.892	-961.044	-744.269	2378.175	2885.097	-1383.454	-3118.615	-5693.150	-5240.237	-5461.475	774.306	-123.272	766.195	-5064.649
607	6.06000	-2258.151	-150.235	-2379.983	-2822.174	-2465.746	938.803	-1273.012	6326.818	4110.380	1924.830	4749.446	-1192.012	1333.019	-153.507	3076.490
608	6.07000	1556.128	1293.233	3297.815	1261.075	1689.958	479.966	-1423.027	-5570.337	-2650.716	-613.873	-506.688	-1939.589	-1850.966	-1617.822	-1589.803
609	6.08000	-1379.668	-978.923	128.873	-3464.362	33.203	-2788.768	186.385	3650.677	2280.245	-1176.893	2412.080	278.203	-606.914	3065.263	-829.555
610	6.09000	-865.580	96.148	49.609	-1335.450	528.340	374.942	-3415.969	-3676.004	-4253.297	-1443.447	-2025.727	1302.775	-2178.444	-378.116	797.475
611	6.10000	-3585.796	-732.149	-579.809	-1611.791	-2877.495	-1044.419	-2237.423	4766.458	71.265	844.054	3422.057	1563.650	-1576.536	-3006.874	79.029
612	6.11000	-1001.847	-2061.760	-1190.754	-1168.529	2787.533	-1705.347	-153.448	-5615.209	-777.141	-3217.020	-1545.072	-2660.680	2105.187	4062.810	1312.748
613	6.12000	-940.860	2177.964	4645.476	-1914.496	1359.409	1230.256	-3111.571	5016.385	-1610.274	-806.537	515.664	62.393	-4419.033	-2617.471	1131.008
614	6.13000	-1416.678	3016.941	617.287	-4478.239	-3049.031	-3054.317	299.253	-2687.330	-3439.618	-920.483	-1217.870	457.375	-1692.837	4683.453	-2006.856
615	6.14000	-2662.961	-2088.673	734.145	1125.160	98.082	-1147.764	-4553.015	1178.123	123.131	-4057.106	-497.361	-2613.992	-2869.738	-5399.593	3594.988
616	6.15000	-1863.226	-7.807	1604.004	-5119.516	2848.301	-2549.888	-1957.988	-2033.442	-2492.725	-1204.863	-1000.926	-848.417	-1231.905	1020.475	1704.818
617	6.16000	-4390.416	-330.708	-1573.826	-3753.119	-3572.283	-1877.874	-378.697	3324.067	822.170	-3865.438	779.429	114.931	-3409.979	-738.935	-3521.121
618	6.17000	-1198.604	0.268	2000.071	1842.771	2364.226	547.816	-1087.061	-580.111	-2214.941	297.082	1765.663	673.146	463.881	3995.134	4660.803
619	6.18000	-3481.585	-324.265	-230.269	-2492.762	1057.284	-2170.141	-3354.714	418.488	-2532.663	-1875.904	-874.468	-909.554	-6605.829	-951.583	-1639.862
620	6.19000	-3203.045	906.734	1730.179	-2367.843	-1413.243	23.389	-3296.944	-4445.814	-1692.586	-2147.542	-592.812	616.699	1385.151	-4418.317	2634.325
621	6.20000	-764.430	-186.918	656.712	-5027.785	-654.458	-3521.830	-819.602	5310.869	2371.341	-2847.643	1471.305	-612.726	-5089.412	4204.673	407.862
622	6.21000	-4159.001	-602.938	-714.343	28.529	2574.838	-573.253	-2786.092	-2214.335	-3658.212	-2751.870	-578.814	-557.297	-1721.744	-1681.071	-100.718
623	6.22000	-4058.048	-539.326	-1542.544	-2697.944	-1357.526	1219.483	-3330.515	1235.248	387.825	-1495.238	1.873	547.353	-2522.456	-2002.585	953.514
624	6.23000	-346.488	1399.059	2718.591	-4807.616	754.498	-5848.874	-1036.240	-576.837	-41.652	-5236.940	-1253.737	-2549.247	-4608.970	2880.995	-96.078
625	6.24000	-4247.592	-1030.229	-1506.208	-443.224	-397.461	1648.610	-2581.859	859.433	-333.741	946.200	1806.062	2150.786	-508.151	-2419.815	2559.886
626	6.25000	-3334.857	-794.207	345.328	-3545.909	1334.939	-2228.601	-2935.826	-609.108	-2533.993	-4807.239	-1326.691	-2102.204	-3423.043	2140.656	-1878.280
627	6.26000	-810.041	3457.164	1676.711	-1174.513	-2935.780	1548.885	-2923.431	233.859	401.275	-2089.815	5009.116	-483.403	-2225.096	-3550.340	932.909
628	6.27000	-5039.457	-4003.399	-4248.543	-5302.670	2089.366	-3443.677	-1965.914	-714.498	-274.934	-1405.945	-3126.921	903.745	-4498.516	2641.251	577.222
629	6.28000	-1690.560	575.818	1817.363	-1496.785	1344.113	680.543	-2967.006	1020.086	-84.819	-3316.636	1065.398	-666.491	-2054.837	-1408.719	924.721
630	6.29000	-2705.740	-137.811	1007.877	-2150.837	46.604	-714.293	-2293.912	1247.141	-421.758	-3042.439	-3369.663	201.760	-506.286	418.751	-1678.313
631	6.30000	-3908.393	430.806	-2696.265	-1843.534	-1181.832	-684.641	-1967.862	-128.561	760.498	-2811.394	706.529	-269.220	-5470.006	911.851	188.892
632	6.31000	-1747.310	1362.077	2334.357	-4674.630	-2203.792	245.249	-4063.742	-1991.584	-3001.485	-1421.032	-703.415	-191.642	-2276.197	650.032	-331.110
633	6.32000	-2320.836	-934.164	-1687.336	-1637.924	2893.088	-778.083	-1961.310	993.137	2289.607	-2479.831	-168.840	676.296	-1663.836	-2020.490	2370.814
634	6.33000	-2414.318	7.685	193.705	-4441.235	161.624	-913.952	-2150.181	377.222	-100.086	-3533.495	1604.073	-1514.611	-2786.342	1660.008	-851.536
635	6.34000	-3430.388	264.709	1121.438	43.699	-1806.604	112.929	-2144.044	1668.597	323.198	-2174.308	113.673	1613.832	-1923.331	-2566.812	-1438.476
636	6.35000	-3552.615	-2690.716	-472.509	-4858.886	790.856	358.054	-4826.565	-3401.035	-2509.325	-2202.529	407.881	-1260.357	-5241.513	2335.440	2221.301
637	6.36000	-1204.536	2290.767	-54.104	-3242.676	-1021.706	-881.617	85.722	2163.877	1240.596	-2586.450	-71.874	624.324	-738.821	39.211	-986.647
638	6.37000	-1996.913	1926.796	327.355	273.452	1666.246	2472.626	-3614.057	-732.393	1172.972	-3585.083	694.570	-13.309	-1539.428	584.897	-538.426
639	6.38000	-5454.237	-3568.583	-1529.986	-3482.879	1178.427	-899.092	-2140.509	414.858	-668.949	-846.902	21.445	829.139	-3560.497	-4017.883	-1466.854
640	6.39000	-928.122	1495.818	1853.632	-3799.251	-3463.169	-2591.674	-3245.423	-1255.513	-2191.683	-4264.457	-2744.661	-1925.577	-2817.702	4119.675	775.954
641	6.40000	-2041.358	456.197	643.229	-1934.682	3004.852	4352.502	-3119.302	2082.199	1509.181	-2477.656	1640.677	128.484	273.805	-1280.287	3253.567
642	6.41000	-2542.176	-685.003	946.228	678.909	-955.791	186.837	-1054.767	-1783.634	-995.491	-2607.628	-1922.157	1524.708	-8883.390	853.382	-5748.637
643	6.42000	-5058.452	-298.752	-3551.514	-6822.819	-165.797	-2397.692	-3423.395	2826.778	3122.435	-1074.587	2316.098	596.708	2735.603	-1779.410	1818.230
644	6.43000	886.447	1884.011	4363.406	-657.349	1459.875	2462.167	-1024.163	-4539.963	-4545.393	-4042.938	-1098.563	-2707.323	-3880.494	1481.201	2119.204
645	6.44000	-3921.410	-2173.661	-1270.448	-3996.712	-1024.872	-548.534	-5646.383	3787.521	3161.214	-2174.847	860.753	1163.208	-3867.476	-1616.410	-459.362
646	6.45000	-2432.276	1595.608	-1509.826	-4213.025	-3373.629	-1157.465	359.590	-2867.637	-1515.659	-2255.987	-1435.193	3298.418	-1834.660	126.451	-2851.889
647	6.46000	-2088.297	-1887.123	2583.799	1764.169	1642.987	3726.621	-4483.315	1185.753	2549.984	-5775.839	-112.239	-4465.691	218.796	860.881	2577.413
648	6.47000	-2712.117	2743.203	-115.049	-2748.030	3847.577	-2715.686	-1278.827	-1842.771	-5587.092	2173.923	1767.882	3104.436	-5310.345	3190.937	-1704.104
649	6.48000	-1437.371	-1520.892	4584.732	-2878.950	-4037.663	-2097.043	-1050.873	2835.754	1213.612	-2637.636	-1438.132	-1151.381	727.046	-3756.573	4712.184
650	6.49000	-4037.038	-569.019	-30.017	-738.278	431.839	-27.882	-533.901	-3600.913	-5847.635	-755.501	165.554	526.758	-5715.950	751.274	-671.662
651	6.50000	-1460.108	-12.085	3485.548	-368.877	878.843	-4083.470	-3776.900	1957.985	1904.346	-1238.594	-193.263	-1655.012	-1578.391	142.771	1013.682
652	6.51000	-608.551	2178.323	2108.707	-3478.469	-2300.506	-1887.810	555.762	-3251.350	-8867.265	493.252	-340.074	1569.017	851.635	-1989.101	5466.056
653	6.52000	-5122.704	-4853.662	864.575	164.303	1773.428	-2029.549	-3187.805	4454.438	3621.279	-1868.536	-1222.838	-2467.947	-6550.264	4601.489	-1212.309
654	6.53000	1746.971	3903.629	3026.148	-270.427	-1053.048	-1533.234	1098.856	-3692.514	-3378.772	-1994.534	1583.854	2330.640	-2003.539	-5753.097	3125.628
655	6.54000	-1067.699	44.501	-2172.342	-1966.914	78.161	-1298.185	-4770.283	3613.013	3509.675	-612.633	-406.265	600.066	3062.136	3095.329	2125.576
656	6.55000	-2302.631	-2225.832	-9.164	-3350.529	-912.090	-3197.724	1592.854	-2605.276	-3473.553	-4239.905	-425.611	-2266.482	-7757.139	11.892	1397.010
657	6.56000	1130.677	1407.609	1355.517	1614.416	736.090	2233.913	-5231.690	-1245.991	3325.650	2644.197	981.084	756.534	2365.237	-355.033	-799.856
658	6.57000	-56.728	209.242	-3.182	-4095.770	-4703.869	-332.966	1384.258	2487.871	825.313	-3710.971	1067.643	3153.687	2507.718	1673.888	3886.586
659	6.58000	-2652.826	-261.364	-4452.644	-649.193	5001.474	-342.185	-3683.126	-3186.940	2736.234	-161.101	-1589.090	-4300.994	-1692.099	-1866.018	-634.896
660	6.59000	377.365	272.012	2434.031	-1012.302	-2652.332	-937.824	1474.296	1616.420	471.848	-9.507	227.329	3851.177	-708.965	-56.833	-38.070
661	6.60000	-303.344	-1028.867	-3367.300	1397.298	2862.845	5836.550	-2325.902	397.906	1737.197	-858.584	-73.813	1872.798	21.806	759.670	1385.322
662	6.61000	1029.979	658.794	2511.620	214.869	-3756.798	-1161.901	-728.761	-2528.968	557.238	-1482.314	318.354	-4226.429	-2529.633	-56.737	-3158.438
663	6.62000	-1474.816	-233.718	-2400.852	-2513.049	-269.986	859.661	1954.286	3154.986	3610.643	-463.449	-289.609	4261.362	1495.065	-2346.260	1702.412
664	6.63000	1710.298	-1229.783	1426.178	1813.475	2522.790	5084.350	-2634.331	-3943.591	488.016	1059.546	-1416.739	-475.036	469.459	2183.876	-385.625
665	6.64000	-724.894	2299.497	-1027.716	-1908.430	-241.499	-2344.615	1642.628	1143.966	1077.589	261.486	2428.601	2282.302	-528.826	1593.051	-3446.996
666	6.65000	383.041	-626.335	61.536	21.025	-4542.786	3985.040	-944.849	1906.891	2043.276	-3161.229	-3702.405	-4448.715	624.004	-2382.937	701.954
667	6.66000	1723.273	18.190	1009.087	3294.029	5408.509	2404.933	-395.022	-3835.776	-2369.262	1646.612	1985.679	5485.611	2316.458	-275.780	1905.230
668	6.67000	-962.491	-369.561	-1158.640	-3061.942	-4726.846	561.213	1349.949	2539.327	4585.674	-555.343	-1129.821	-3689.207	-5618.010	1893.265	-5165.498
669	6.68000	2231.111	69.460	-524.698	4115.060	4797.249	3540.033	1601.123	172.632	1689.262	5284.173	2080.960	7731.874	604.391	-4879.033	2477.306
670	6.69000	-751.451	602.127	937.403	-319.934	-1955.249	950.740	-8360.727	-6146.095	-4060.278	-5287.119	-1168.557	-6327.311	4884.610	4866.136	-1602.021
671	6.70000	1903.314	-138.426	-624.747	560.213	-1697.183	2515.649	9921.280	6985.027	5079.624	4362.916	1083.803	4925.309	-1390.107	-2511.741	-534.589
672	6.71000	-971.581	221.352	-16.297	-519.245	2092.636	-1452.079	-163.993	-931.142	2536.257	-4264.857	-3508.977	-4327.404	3004.048	4145.639	-2710.347
673	6.72000	2164.986	-639.653	34.767	4017.225	-2541.774	5188.269	-464.453	-1591.464	-2634.893	4244.970	3878.234	3280.266	-706.310	-2769.878	973.077
674	6.73000	662.522	2823.819	-908.291	-1916.416	4233.690	-2443.778	797.109	1225.033	2650.280	-76.505	-2639.524	900.917	1148.616	1190.852	-1869.706
675	6.74000	56.032	-5154.716	523.071	3006.148	-3274.807	4742.551	1429.807	-174.366	-167.624	1592.531	2236.696	-283.688	-681.924	-2152.042	1859.913
676	6.75000	612.462	4572.357	-860.061	-2516.899	832.576	-3824.073	1498.350	1320.386	1472.810	-374.327	-1562.756	141.138	1411.524	1995.376	-2349.729
677	6.76000	2251.488	-2109.288	2233.835	1889.520	-287.588	1683.815	-3251.865	-2902.142	-5328.368	843.432	-38.564	706.834	3697.112	431.286	-509.254
678	6.77000	-1462.904	-169.504	-2125.182	2376.767	1772.822	2899.011	3951.691	3386.915	7602.975	36.825	-325.943	-943.242	-2962.158	-1160.716	1104.450
679	6.78000	1175.590	-950.212	601.388	257.662	-638.658	-3953.376	-162.532	-4571.931	-5695.340	-300.645	1116.471	-1232.807	2692.751	1631.513	-278.762
680	6.79000	1603.037	2811.464	1741.728	458.902	-1325.637	2427.784	1166.657	4427.073	4647.985	2490.478	-1380.646	1039.007	-3314.871	-2766.814	3124.273
681	6.80000	646.535	-2123.207	-237.100	548.528	1643.070	-315.126	1689.578	-3478.843	-2670.847	2259.152	3134.768	2928.790	3980.871	1739.610	-4166.348
682	6.81000	2193.724	3205.689	-683.510	-1019.399	-1736.200	-2416.635	1366.014	4269.615	2847.138	339.327	-1129.139	-1839.668	1614.412	-638.853	4798.630
683	6.82000	-1647.623	-3162.343	-290.706	4958.771	1184.529	4525.990	-269.214	-2802.493	-3161.860	-874.417	-1470.284	-72.298	3103.709	1769.978	-4069.963
684	6.83000	2215.643	54.886	1972.512	-1469.820	-54.401	-2128.484	2524.106	3509.877	4158.706	1607.984	1600.514	-354.774	-3673.258	-2323.611	2491.661
685	6.84000	383.572	1294.738	-977.587	-87.473	85.196	-857.373	-814.561	-2785.994	-4853.243	1593.577	-2026.143	2046.970	3854.427	26.678	-122.316
686	6.85000	-84.750	-1090.152	-1438.268	-1736.748	-842.402	-372.594	-2593.360	-1823.081	1384.053	-460.869	523.396	-1198.392	-608.886	2929.491	1595.513
687	6.86000	1697.511	-530.205	3473.410	5036.050	-127.229	1570.848	5434.249	2526.035	2321.485	1947.800	561.124	-158.464	-2368.287	-6299.274	-2855.009
688	6.87000	1330.857	1441.186	-2323.638	1237.128	2090.750	1260.377	-1909.899	-1435.668	-1077.271	-789.378	23.648	226.626	4808.826	5272.178	2568.128
689	6.88000	-419.945	-46.063	-122.270	293.527	-1910.295	-344.062	3533.929	1515.412	1177.063	373.612	-975.995	946.203	872.900	-2622.649	1524.332
690	6.89000	424.090	-1452.230	2623.882	-961.039	1757.420	-1363.946	-1144.557	-1319.324	2404.554	1009.650	-962.612	-777.496	-1087.488	1815.333	-3446.137
691	6.90000	2698.064	831.034	-871.584	1285.982	-1688.170	447.789	3279.487	1307.824	-2819.787	1978.020	2947.091	2514.880	3121.481	-257.841	4960.093
692	6.91000	-1501.706	-976.321	-122.500	3058.923	1160.080	4658.583	-1227.321	-689.627	3515.705	-118.051	-2522.948	-136.790	151.927	-207.584	127.359
693	6.92000	2075.483	-304.485	5098.144	-2212.389	-1826.470	-2683.585	862.052	-1209.507	-135.166	2180.247	2161.648	1907.032	-1951.948	-533.083	-1872.331
694	6.93000	1918.265	1889.771	-2451.758	3082.598	1924.750	2934.435	2531.211	2425.314	1423.226	885.620	-497.675	1245.489	4706.330	825.858	4562.937
695	6.94000	-1138.537	-1766.410	527.441	-2352.973	-3238.939	-4.001	-896.742	-2447.486	-382.239	-1809.616	-2151.045	-888.197	-654.713	-1079.951	-90.063
696	6.95000	2797.325	1123.881	5605.211	3797.857	1826.746	1919.070	-184.414	649.535	4354.071	5202.429	2755.039	3641.309	-1282.730	259.889	794.460
697	6.96000	-404.759	-288.102	-1793.076	-75.601	1443.238	1908.333	4008.371	750.139	-2116.495	-1454.676	-1108.148	925.543	145.503	-2148.337	4759.470
698	6.97000	1785.225	703.056	2713.530	-1705.734	-2210.308	-178.033	-3592.479	-2755.075	3057.652	50.051	-2418.520	492.532	3998.730	4464.630	-5586.649
699	6.98000	-1278.985	-2337.103	692.464	3647.832	961.843	1133.164	3411.459	629.221	1262.754	2434.080	3005.728	1407.936	-407.429	-2515.668	5948.466
700	6.99000	3148.426	1839.789	1253.653	147.940	221.438	2372.104	-1719.288	600.801	300.969	1419.814	845.013	2355.771	5032.816	905.459	1258.992
701	7.00000	1509.927	-36.005	1692.834	2823.937	-392.840	2876.371	4608.579	1417.914	2581.832	632.363	-1583.309	1395.880	-4163.275	-1853.928	544.250
702	7.01000	-1534.114	-1384.811	398.497	-1664.159	-71.751	-1010.501	-1493.359	-2011.397	2045.094	-350.217	-304.801	391.633	3778.265	68.308	3497.058
703	7.02000	2555.083	-722.178	4154.103	3102.819	-278.254	3575.004	2662.117	1089.555	277.859	-1322.908	-1433.020	1980.874	998.974	1784.798	1148.122
704	7.03000	238.599	1966.373	-1252.373	-2160.068	-36.214	-1497.606	1801.489	799.352	3502.262	4539.424	2379.972	2382.746	2166.118	-1662.786	1863.167
705	7.04000	470.894	-607.673	2929.206	3949.880	1782.699	5091.571	565.241	14.234	914.002	1964.327	-893.147	1014.853	-4906.728	-2119.392	27.726
706	7.05000	1907.008	-131.845	2191.549	2349.780	-1628.945	1190.249	-1740.825	-3826.943	1241.229	-2697.430	-1982.445	1583.651	4255.335	1376.007	2481.583
707	7.06000	-519.660	-1364.228	-1054.150	-3983.636	-633.832	222.639	2791.423	2872.911	830.556	1396.421	1385.587	414.944	2435.428	1463.634	1121.108
708	7.07000	2361.120	1433.618	2786.123	5682.336	17.633	2878.190	1572.916	96.356	4202.225	4206.171	556.375	4787.184	763.787	-673.302	2428.604
709	7.08000	850.955	-946.744	2369.984	-1473.981	1142.667	2013.343	2686.133	1470.170	837.745	-738.823	339.705	-489.407	722.959	587.698	986.739
710	7.09000	1076.956	80.400	1182.773	1254.181	214.110	252.040	171.351	-1288.921	2064.582	290.565	-1321.035	2350.198	1801.424	-544.763	2444.645
711	7.10000	868.734	-79.373	2074.288	1894.953	-1558.472	1662.804	66.750	-1295.204	2710.199	1426.621	1130.868	845.952	-1058.903	-2958.173	1505.837
712	7.11000	1020.694	311.030	1719.815	-568.590	1395.984	1123.974	3705.968	3228.733	-460.736	2056.197	218.653	3067.899	3685.698	4338.841	554.499
713	7.12000	-818.708	317.864	415.105	-658.876	-556.934	1901.115	-2067.510	-3805.756	2070.388	-747.858	-3194.224	491.259	-1585.254	-2336.546	1126.627
714	7.13000	1389.787	-2546.350	2014.093	2494.337	-1152.848	1417.433	748.494	391.410	1990.250	2124.734	3704.637	1301.459	2599.926	-633.528	3199.254
715	7.14000	3098.135	2405.040	2631.280	1272.518	340.900	832.754	2497.097	3643.428	1174.470	480.257	-1935.475	2767.787	1032.634	1859.345	1992.531
716	7.15000	-1511.930	-1949.222	77.244	2419.650	1070.876	4945.677	-371.742	-2833.717	907.053	1939.934	584.537	1336.868	813.271	-1448.668	420.391
717	7.16000	2024.763	836.026	1247.190	-2117.170	-611.156	-2056.878	3733.637	304.388	3464.502	-357.804	-980.787	1001.904	749.680	557.024	3084.324
718	7.17000	2423.279	1397.799	2585.490	3283.945	-621.161	4705.313	-9968.909	-5928.252	-2060.222	1177.333	551.828	1424.915	-374.174	-1214.804	-892.850
719	7.18000	-970.403	-1348.914	1159.624	2152.444	197.690	1260.768	12120.945	7643.811	5669.924	882.169	-568.694	1714.852	1749.803	855.836	3950.431
720	7.19000	1113.981	-208.847	1379.939	-982.624	1188.032	609.174	-636.250	-1748.737	856.160	277.812	425.201	1112.680	-2559.034	-725.566	271.449
721	7.20000	467.638	24.570	81.467	-21.861	-2182.352	1583.909	1442.558	1380.301	1327.286	-1660.266	-618.109	1309.071	4360.926	1086.920	719.400
722	7.21000	2690.411	422.911	3858.515	2025.219	1848.039	785.211	-4369.442	-4845.018	-331.527	5321.187	1477.355	2645.295	2147.155	-45.942	-694.583
723	7.22000	-1811.892	-1073.745	-2290.007	171.528	-938.993	1723.154	4348.604	2239.538	3680.393	-504.016	-1321.886	-133.171	-779.283	362.545	2972.454
724	7.23000	2611.234	2238.407	4942.769	2775.919	354.588	2072.330	3480.504	3173.968	1034.663	1369.598	1426.250	1984.416	1381.882	-1709.296	3279.964
725	7.24000	39.692	-2786.011	-1226.355	15.846	-275.571	1940.166	-1446.624	-1858.597	-192.067	207.147	356.503	1018.111	138.770	1611.986	-2359.841
726	7.25000	2379.416	2173.431	2787.439	-526.126	-26.261	-2212.098	769.976	86.458	781.510	1367.482	-1654.291	924.466	-1053.618	-2026.405	4708.824
727	7.26000	-1096.234	-1975.295	927.978	-1355.075	-276.507	-49.802	229.471	-718.314	1416.027	-965.371	114.391	1274.171	3077.290	1444.701	-1158.477
728	7.27000	1551.596	1762.239	-499.665	5777.156	1387.710	6351.445	-380.602	-1632.050	1605.636	1848.902	-628.579	788.835	3245.182	835.714	1612.941
729	7.28000	486.847	-400.083	1954.272	-2778.042	-1093.776	-3314.369	4740.161	4057.554	828.497	710.979	1036.909	590.990	-3476.114	-1860.688	-178.263
730	7.29000	1432.303	317.379	371.784	3489.291	755.931	4958.318	-6121.319	-4158.465	-1801.174	2032.559	1177.499	2302.858	2509.477	376.772	2292.815
731	7.30000	-76.838	-251.906	1358.669	-1387.099	-1539.554	-2961.625	6042.915	2108.365	4219.761	-1426.076	-2545.753	134.317	1678.523	2464.748	-1318.471
732	7.31000	371.961	-1185.150	-167.215	533.930	1935.489	2974.765	-1825.106	-686.023	-2336.040	1874.792	2284.796	-64.906	586.118	-906.289	2792.192
733	7.32000	1983.615	3150.678	3069.975	1928.335	-334.671	-64.925	4382.436	3172.221	3974.583	-33.663	-1083.169	-33.652	-560.727	-1335.052	-384.811
734	7.33000	-275.285	-2184.342	-1710.480	740.615	-988.344	2058.557	-492.439	-2219.629	310.900	1664.761	-554.169	3551.662	2251.921	1151.203	1555.794
735	7.34000	940.266	488.186	1964.372	-37.821	1337.532	-1360.881	-802.191	758.730	319.176	1958.598	2127.717	-1115.928	-2454.512	-1322.280	-2555.526
736	7.35000	915.412	-810.514	-262.226	1825.492	990.862	2334.493	1149.190	-848.476	-1082.842	-3706.349	-680.804	-965.012	5061.487	3476.163	4497.196
737	7.36000	358.643	1955.430	1400.564	-143.653	-2293.017	22.124	1269.458	933.578	2240.261	3895.795	-786.485	3899.145	-1821.419	-2061.600	-2776.867
738	7.37000	1830.640	-429.505	1442.701	-370.016	833.544	-443.292	-2582.750	-3460.601	-1217.771	-542.998	-236.267	-2403.776	634.991	-824.347	2832.171
739	7.38000	-1941.893	-2651.449	-2363.453	2013.854	391.446	1576.635	-1248.699	-1019.850	-657.636	486.802	-166.783	2084.807	807.736	1114.503	-630.521
740	7.39000	1805.490	3213.581	3221.502	-1011.761	908.833	1449.251	8815.860	8172.234	3352.106	1523.649	1019.646	-245.472	-2083.974	-1433.786	2092.639
741	7.40000	1856.974	-82.758	-108.694	2846.467	-1131.742	-713.634	-6494.834	-7824.657	-1623.550	-379.067	161.783	679.565	3991.717	805.352	-1187.929
742	7.41000	-691.002	-1246.868	485.474	-2369.105	263.619	-130.569	8429.929	8639.950	4078.699	635.743	-1597.257	1036.237	-578.963	-765.427	709.724
743	7.42000	887.169	1309.553	700.031	3374.096	-517.815	1989.025	-3471.229	-5795.128	-2084.295	1856.144	1812.192	-539.749	172.351	3411.314	1355.620
744	7.43000	-347.663	-1746.048	369.957	-771.288	2371.908	604.748	94.697	2572.594	985.851	-2427.360	-2272.601	400.255	-721.596	-3217.831	1286.345
745	7.44000	2081.308	945.512	-657.124	5036.537	4433.620	2634.868	-4016.135	-5153.173	-2804.327	4347.055	4683.003	2019.114	3017.302	1362.891	-1777.743
746	7.45000	-1003.215	661.628	1496.857	-4406.273	-6740.637	-2306.735	6705.293	5890.241	3104.965	-876.020	-3817.631	-319.256	598.438	-932.912	990.821
747	7.46000	1008.323	-794.778	395.085	1307.987	1289.619	-524.104	567.122	-1792.025	821.306	1148.948	1310.136	-241.016	-227.068	-490.704	1191.869
748	7.47000	1030.559	162.341	-746.343	357.749	-218.406	1833.429	844.737	1129.608	682.128	859.712	-93.887	2343.125	566.898	1628.720	-859.856
749	7.48000	-636.209	-1220.732	977.753	1515.844	594.294	-2076.529	-1496.457	-2139.447	-937.423	-3233.118	924.983	-2829.431	844.948	-1035.883	1362.150
750	7.49000	2191.657	2636.834	1555.221	158.782	-647.671	2204.076	2354.142	3559.556	1247.720	4436.395	836.610	2444.820	1281.656	1199.595	969.883
751	7.50000	-366.067	-1723.460	-931.317	-1448.817	164.944	-323.788	-728.796	-2685.142	-38.385	961.760	-584.118	341.737	-2824.083	-1350.161	-833.825
752	7.51000	991.464	1746.136	924.573	3799.048	212.440	740.272	-582.684	961.821	307.162	-521.720	-1830.891	-166.694	2653.213	1766.195	224.743
753	7.52000	362.492	-268.590	-386.651	-3385.632	123.377	-1240.208	2949.573	225.848	931.697	-398.084	1434.267	739.856	82.034	-1868.270	1947.371
754	7.53000	-763.756	-2836.228	453.671	728.757	-1600.499	6.134	-956.493	-1318.096	-585.063	1038.551	95.291	56.374	2256.661	1020.580	261.158
755	7.54000	1699.446	2419.147	482.077	3233.763	2426.767	2258.546	-3067.633	-2107.926	-978.810	326.952	-1068.711	-754.466	113.445	-318.384	-1006.816
756	7.55000	-588.981	128.528	257.134	-947.235	-550.046	332.772	3574.332	2333.806	1170.593	1818.502	1104.903	2395.285	819.928	335.988	2366.094
757	7.56000	1654.118	-110.844	49.341	2808.577	898.628	-1244.848	1886.226	1183.860	553.277	-439.364	1150.013	-1107.007	-341.578	1928.550	-3725.000
758	7.57000	-1135.478	-2649.820	2659.312	-804.169	-4842.640	1458.163	-62.368	-299.970	-1119.337	2837.216	2112.708	2105.872	140.041	-1386.447	2453.967
759	7.58000	3131.647	4054.508	-1659.040	-700.516	5001.753	703.061	-8699.140	-6226.212	-5766.524	-1857.281	-4692.316	-3661.551	2027.025	-1382.049	-3038.521
760	7.59000	-966.802	-4141.965	996.981	-764.303	-1325.584	-951.209	9303.696	5036.380	822.790	309.601	-1535.018	320.002	-5888.945	-1305.979	-743.042
761	7.60000	-535.391	1432.171	3144.353	4265.022	-1685.041	-1338.023	2765.251	2964.365	-2200.478	-574.082	167.761	-4839.671	6405.958	2501.734	-4661.030
762	7.61000	2845.357	288.608	-3103.051	-2737.912	-77.045	-14.834	-3187.266	-3808.827	-5228.574	1545.663	-827.189	-296.503	-860.161	-2320.653	-5760.357
763	7.62000	-1094.646	-1298.049	-945.602	670.737	2364.250	-1918.337	2860.392	1628.027	-4457.544	939.768	147.582	-1570.040	-1579.305	-1777.717	579.443
764	7.63000	1457.624	-166.285	-785.099	2285.099	-2239.799	-1629.357	-7460.688	-5861.582	-5768.342	151.252	-1457.589	-4243.267	4968.474	2334.136	-6360.524
765	7.64000	-788.426	-1334.140	-1740.506	-30.922	-1534.300	-841.550	6791.821	4625.810	-2947.335	-220.547	944.835	-3068.536	-3115.569	-1409.704	-4106.272
766	7.65000	1439.791	-12.695	-4893.284	-824.782	-1115.971	-2556.749	-2442.987	-3001.393	-5623.550	-550.312	-4343.284	-4119.350	1296.115	-1167.321	-2117.060
767	7.66000	39.605	-1595.416	-695.233	920.286	1304.452	-5084.046	9075.862	7833.902	1566.920	1863.963	919.616	-1944.479	375.620	1739.118	-5408.736
768	7.67000	-650.781	-1651.061	-3460.127	1109.093	-1877.606	-1231.718	-5256.738	-6181.531	-7025.546	-2522.646	-1207.026	-3651.696	-1505.061	-3091.270	-3457.353
769	7.68000	1337.172	489.119	-3470.611	-1360.068	-1600.291	-4715.749	-830.028	-2273.024	-5518.081	3720.375	917.964	-3256.000	152.660	-353.297	-4133.225
770	7.69000	1299.114	-2303.861	-3637.782	1668.804	-180.205	-3045.570	1396.657	853.411	-1531.545	-320.666	-3560.438	-4099.894	2563.076	838.088	-3332.128
771	7.70000	-1436.933	-1058.590	-4142.054	-20.893	-2139.781	-3511.247	-1310.965	-1480.299	-4782.375	777.903	-398.668	-3050.036	1861.808	-97.341	-3913.499
772	7.71000	2523.614	-511.166	-1107.527	2940.664	495.737	-62.058	1299.047	-1179.402	-3741.274	-158.832	899.224	-4220.626	-1661.292	-1820.958	-3096.164
773	7.72000	775.673	-558.701	-5093.402	-3061.286	-3214.706	-7362.728	-3073.445	-3110.911	-2538.628	-651.846	-2797.658	-3616.892	160.852	-1558.523	-4348.902
774	7.73000	-1586.825	-1837.439	-4797.776	3087.437	-484.231	-2802.489	2823.824	6.868	-2914.469	-816.611	82.093	-4554.515	9430.266	9652.271	-7285.461
775	7.74000	352.251	-3537.167	-4322.653	-64.872	-2314.133	-1352.447	250.578	-162.245	-4339.831	4068.519	-3158.280	-2312.902	-15640.934	-11973.311	2272.872
776	7.75000	1043.328	725.700	-5850.532	-435.714	-1568.639	-6437.951	1465.732	-1350.632	2638.906	-3400.670	502.019	-2623.059	8015.171	-1876.578	-2949.024
777	7.76000	390.795	-2464.582	-856.336	1133.974	-806.071	-3119.167	-6231.487	-6604.829	-9232.025	2432.672	-3196.632	-3705.421	-1455.942	2618.177	-2986.245
778	7.77000	-1116.693	-2224.341	-6354.910	-1135.342	-2715.372	-3297.226	8586.407	4061.833	2781.668	1407.971	67.371	-3286.922	852.116	-7543.324	-6617.272
779	7.78000	3001.078	854.452	-2318.355	-1387.991	-2001.713	-6594.650	1207.435	147.515	-2691.867	-1400.392	-1497.391	-3031.845	1074.005	1565.367	2735.214
780	7.79000	-1847.793	-3432.610	-4959.360	2180.646	-857.042	-1925.803	-6295.652	-8453.844	-5286.357	139.788	-1779.538	-3060.009	1030.132	-3284.016	-3864.388
781	7.80000	2742.129	-1329.766	-2167.069	3437.975	-789.670	-1926.512	2381.048	634.151	-730.761	1970.166	-2062.008	-4081.251	-2891.320	287.384	-53.638
782	7.81000	-4479.901	-3985.702	-8121.723	-3817.588	-3327.565	-6820.226	3519.449	-1791.750	-2511.009	-1632.243	-1069.076	-1925.463	4582.369	-4217.660	-4057.655
783	7.82000	5802.575	700.279	2500.374	3336.447	-2091.133	-1755.252	-2059.771	-3194.459	-1354.937	2026.496	-2328.550	-1686.755	787.558	580.710	-2917.639
784	7.83000	-1498.195	-1724.454	-5505.283	-1789.332	-1103.469	-4372.065	6074.161	2355.005	140.983	78.424	-1097.307	-4432.656	-2183.663	-7790.597	-2163.627
785	7.84000	458.022	-2472.375	-3771.453	2779.004	-2054.143	-1613.407	-3155.823	-4043.252	-3668.205	915.374	-4606.880	-1691.234	1575.652	3318.986	-2089.996
786	7.85000	680.166	-3420.179	-3024.137	-1411.815	-3708.416	-4232.775	1000.744	-4876.795	-4025.362	1014.405	-474.885	-1689.231	1097.771	-7369.602	1176.949
787	7.86000	-1387.932	-2230.060	-2362.346	1453.569	-10.990	-3307.026	-2823.177	-2683.195	-1439.096	-1045.778	-3378.723	-2018.145	-1302.431	1655.309	-4040.817
788	7.87000	1762.181	-1375.633	-3788.282	-709.157	-4213.119	-938.247	-170.597	-4252.276	-1896.614	-614.596	-1014.750	-3889.932	3249.290	-4959.661	-525.411
789	7.88000	1383.598	-2998.257	583.697	1769.106	-606.570	-4393.669	5224.463	774.857	-462.994	2724.051	-3053.066	-1727.353	-299.530	-1943.148	-3292.987
790	7.89000	-1029.941	-3348.409	-6344.427	-1030.402	-4503.583	-2682.375	88.044	-2190.960	-2370.439	943.372	-2165.409	-1163.700	-2328.909	-2804.159	-713.971
791	7.90000	2215.990	490.793	1121.309	1829.375	-270.977	-514.719	-4813.108	-6112.151	-257.789	-317.811	-3253.106	-1912.229	1472.755	-3736.283	2128.007
792	7.91000	-2086.320	-6587.108	-4696.876	-1932.289	-4760.193	-4131.923	5706.923	-471.191	-4027.410	1228.973	-1276.083	-2393.099	1348.150	-3158.016	-8283.848
793	7.92000	2905.354	512.499	44.206	4150.882	-1123.269	290.130	-3326.620	-5648.697	-1428.731	-1378.603	-3641.003	-2611.219	2158.162	2031.161	134.168
794	7.93000	407.636	-3611.018	-2364.831	-957.023	-3991.009	-2329.841	5211.999	2011.682	-136.395	2017.641	-2840.457	277.558	-1959.696	-7297.136	499.038
795	7.94000	-218.286	-3081.220	-979.239	-490.960	-3656.422	-2171.282	459.523	-4037.579	1605.030	-639.889	-2302.215	-4152.716	2462.868	-2765.390	-788.671
796	7.95000	433.025	-2155.685	-3152.835	30.510	-1171.589	-3736.313	-361.251	-1769.619	-3460.417	2063.385	-2216.882	3019.863	-212.399	6.269	-4213.283
797	7.96000	131.688	-2318.410	-1800.918	3646.501	-2757.590	1379.707	-2097.378	-7536.564	-2146.344	507.701	-4275.637	-4380.912	719.820	-3585.206	-1274.598
798	7.97000	287.332	-3864.852	-651.736	91.282	-2284.489	767.088	-2124.512	-3071.893	-2488.927	-1056.634	-1726.376	-1109.180	725.370	-3950.733	-37.909
799	7.98000	1776.569	-2848.797	-2117.834	-2041.458	-3528.434	-5263.795	8054.208	1030.236	2259.381	2414.456	-1686.105	-1032.427	-1789.466	-4734.477	1902.444
800	7.99000	-221.672	-2656.858	-2712.122	1741.707	-3964.812	191.798	-347.827	-918.808	-664.473	-986.829	-4741.783	-885.665	2198.784	-1906.378	-4620.929
801	8.00000	679.812	-1020.465	1195.917	334.152	-688.741	-1300.596	-341.484	-6155.826	-1976.157	2633.769	-1904.950	-1049.341	3440.798	-1486.473	2157.780
802	8.01000	1785.531	-4116.547	-57.384	1105.389	-3806.920	629.735	-73.483	-2036.479	-1915.999	735.075	-4454.839	327.167	-3977.052	-4148.345	-3910.053
803	8.02000	-2245.739	-4267.046	-3869.856	1433.367	-2725.196	-1387.090	-1742.181	-5925.930	-391.495	-1598.280	489.572	-3584.783	3217.512	-4178.408	-1989.458
804	8.03000	2658.328	-859.332	66.614	-541.284	-4212.860	-947.360	126.514	-1659.619	-286.293	2926.619	-6587.971	603.324	-3471.336	612.872	2888.364
805	8.04000	167.529	-4774.159	349.403	1400.411	-745.800	60.270	-458.236	-5749.812	-3517.142	-2447.081	-140.490	192.171	8621.508	1937.295	-8317.386
806	8.05000	1121.713	-1655.913	-1203.999	-662.431	-3620.373	-2819.456	9373.394	6639.164	6370.481	2817.159	-3747.369	-1470.749	-3245.570	-9664.130	7286.689
807	8.06000	2259.460	-519.612	1943.223	1289.585	-4013.749	1446.145	-5565.064	-10638.328	-7631.438	-2360.830	-3806.637	-1639.086	1056.907	-3721.576	-6030.047
808	8.07000	-3212.625	-8048.319	-7059.560	1364.175	-2212.551	-912.259	3069.328	36.909	4036.243	3732.971	-1378.848	290.818	-101.588	-2023.568	4869.857
809	8.08000	3384.045	840.546	5210.431	-2326.801	-2587.039	-2244.965	-882.010	-3336.810	-2942.803	-976.054	-4989.633	-445.621	1248.994	-2757.950	-1834.158
810	8.09000	-528.274	-5112.649	-1146.788	3801.111	-3207.307	670.570	2939.758	-2989.474	631.955	1821.151	-1059.346	309.452	649.045	-2768.616	-2080.619
811	8.10000	393.082	-2120.821	-1870.409	-1657.496	-919.364	-877.403	-1197.579	-344.793	-524.480	442.032	-3546.242	-951.368	-203.036	-3759.541	963.162
812	8.11000	-496.684	-4493.934	-1837.425	2229.247	-5043.660	-2115.827	-962.087	-7418.486	-1537.018	286.510	-1983.585	-975.192	372.717	-2017.455	-780.807
813	8.12000	2866.131	-353.537	4677.925	-1596.526	-2922.093	692.768	1442.891	-372.231	-1990.571	553.910	-3394.511	806.045	1213.099	-2110.559	-2942.785
814	8.13000	-725.081	-3658.668	-2929.264	3217.193	-1883.794	941.299	-585.187	-5060.660	1750.752	437.981	-3117.350	-757.832	-1170.017	-6076.838	4337.720
815	8.14000	247.835	-3495.487	-2530.848	-307.040	-1570.213	686.912	1846.031	-2136.833	-1242.916	989.719	-2082.822	-990.335	2347.977	-322.109	-3541.377
816	8.15000	1595.249	-2878.571	1537.678	-1358.402	-4808.021	-4514.323	5729.951	3494.945	3428.270	-2677.333	-6056.970	-647.261	-545.106	-5883.796	2987.946
817	8.16000	-1133.962	-2971.253	-1489.116	3286.432	-2059.080	2437.132	-8009.791	-12184.335	-5450.047	4498.027	902.409	383.503	2134.915	-700.435	-3773.955
818	8.17000	4114.492	-905.924	272.200	63.658	-2147.524	-1259.616	7553.552	1988.349	5008.562	1240.979	-2505.900	1225.830	-331.867	-4639.978	6757.921
819	8.18000	-2386.525	-2465.507	-3705.409	417.601	-1943.146	-2281.884	-2145.682	-3421.438	-777.675	-163.235	-3369.664	-2384.580	3560.762	-219.792	-6733.678
820	8.19000	1105.325	-1277.761	-2556.290	997.133	-3211.518	707.394	230.983	-3792.117	2854.118	-813.158	-542.254	2668.258	-4242.436	-2025.236	4377.586
821	8.20000	1031.780	517.799	-586.610	-818.294	-994.850	-4734.835	-2346.769	-8784.988	3831.876	1871.525	-3925.104	-2003.436	3112.716	-4453.488	1592.132
822	8.21000	1272.524	-3798.768	-4695.474	298.786	-1765.923	-1248.420	9516.163	7521.740	6340.514	-1139.377	252.468	1104.606	1099.495	-3184.233	770.494
823	8.22000	-2501.775	-1483.177	-2905.837	1298.623	-3292.658	-1040.721	-6286.016	-9964.064	-3899.217	1531.482	-2611.797	1159.813	2465.148	580.196	3007.193
824	8.23000	3132.284	-232.191	159.382	1222.463	-245.916	446.901	4158.651	278.983	5023.643	1328.550	-624.332	-877.817	196.281	-3025.110	3407.081
825	8.24000	-1533.454	-3484.163	-4891.548	-832.417	-2982.079	-3112.274	480.172	669.227	2017.872	-1724.511	-1429.658	-316.919	-849.508	-4669.986	1065.094
826	8.25000	-488.231	-940.193	1989.541	1420.236	-1287.288	-689.379	-1121.744	-3406.210	-1896.275	2567.275	-1972.070	1275.053	599.302	1502.452	-2650.295
827	8.26000	2166.150	-2250.377	-1053.690	-659.907	-1193.606	4472.819	2916.818	-581.769	5092.219	-256.578	-821.568	-628.198	91.233	-197.712	940.676
828	8.27000	721.426	-1784.701	-378.288	611.405	-987.101	-3900.864	-1573.049	-2386.221	-5637.377	954.006	-1450.939	269.552	2903.986	-4249.744	3745.606
829	8.28000	2717.736	1263.481	5411.071	1895.936	-3865.310	-903.405	-69.191	153.559	2369.975	-2329.454	-4059.400	-1927.311	-1428.494	1653.735	-3084.811
830	8.29000	-3096.641	-5892.786	-4131.413	1398.130	1488.330	3070.420	1922.007	-889.788	680.124	4188.377	1768.107	2861.238	845.628	-649.772	1834.714
831	8.30000	2022.004	2217.366	3457.398	-3912.249	-2719.104	-455.546	-512.301	2106.936	-3005.140	-986.627	-1753.489	-866.784	2163.261	-2122.851	-1371.477
832	8.31000	544.358	-2562.326	932.688	5412.247	-366.165	2587.715	-42.689	-3037.711	-1694.321	-233.749	-646.983	959.706	-7224.052	1230.925	-1496.009
833	8.32000	667.965	39.781	3822.426	-3992.986	-1396.036	-822.271	-2793.204	-901.604	2229.657	1921.565	462.043	871.920	7264.442	-551.156	1142.713
834	8.33000	-633.235	-1478.872	-954.598	2917.586	638.535	3268.965	1156.180	-240.415	-4012.721	-1034.702	-2469.253	-1551.854	-5607.170	-997.980	-651.832
835	8.34000	1601.807	64.061	3842.224	724.423	721.256	600.427	2612.316	3144.707	1369.804	1820.519	2195.626	385.946	4401.794	2158.079	598.030
836	8.35000	39.584	663.198	137.418	-799.489	1.342	-944.177	933.912	74.286	-2275.620	-435.641	-2282.824	735.674	1541.022	-1875.268	-2635.199
837	8.36000	259.994	-693.047	1695.961	-108.885	-1489.561	2807.456	1251.598	1161.094	559.616	965.795	1208.077	614.843	-2050.944	262.215	1309.307
838	8.37000	-249.924	-1374.775	2008.968	1415.797	362.150	1331.483	388.766	285.231	662.820	-160.907	-249.311	-275.513	3066.097	1507.433	-3556.865
839	8.38000	972.356	2053.439	1218.456	-612.935	-984.552	1318.545	-778.201	-1087.759	-3369.628	561.023	128.930	566.758	-4284.734	1897.408	1643.908
840	8.39000	69.564	1054.828	1167.463	2283.487	4122.529	-466.086	-322.211	2305.027	2038.309	763.106	186.219	729.355	3880.040	-1729.614	-859.610
841	8.40000	287.956	-338.169	1244.451	-2176.829	-1010.480	885.353	689.135	-659.188	-3278.051	-1236.439	5.159	-825.383	-784.421	-983.724	2706.762
842	8.41000	-1758.851	-524.148	-1701.036	1338.329	2354.445	2164.408	331.694	28.385	1176.512	488.909	1030.186	1874.445	1032.459	3338.416	-4441.501
843	8.42000	2464.212	1260.021	2981.750	921.313	-3001.287	120.660	-906.449	1345.533	-1250.523	622.819	313.457	-1057.557	4.721	77.971	128.719
844	8.43000	155.859	1962.534	1618.243	236.753	3302.779	1014.518	-207.337	1455.641	-411.084	-265.164	579.856	606.290	1173.926	2098.996	342.406
845	8.44000	1200.291	-1084.724	678.057	-611.680	804.575	2604.377	1031.400	121.640	-52.152	1833.026	2693.859	1619.938	-1216.023	-432.827	1297.552
846	8.45000	-495.612	3093.315	214.375	566.790	-705.311	-648.356	-29.098	2408.292	1151.376	-597.388	-1383.410	-600.720	763.035	450.193	-1033.074
847	8.46000	-324.947	-566.464	212.587	575.888	2097.103	737.628	2219.820	-1257.554	626.350	-60.248	1678.348	-704.253	1220.322	2554.340	-417.684
848	8.47000	2274.823	2451.306	2169.609	1681.116	2032.742	599.810	-2050.706	1790.213	-443.257	1984.624	1260.423	2856.740	-702.532	242.291	1247.003
849	8.48000	-2020.145	-226.170	193.713	-1784.240	1605.238	1462.470	1181.165	562.075	-686.227	-976.589	-562.753	-2104.158	580.965	-249.320	-1910.992
850	8.49000	312.213	862.887	-686.471	997.890	-1434.023	-471.608	76.637	1710.815	-46.304	-338.045	1381.171	1002.569	-3063.433	719.592	2336.140
